File: ftir_visualization/zimmerman_data/data/zimmer_pinales_ftir_abs_ave.csv
Platycladus orientalis,Thujopsis dolabrata,Chamaecyparis lawsoniana,Chamaecyparis obtusa,Chamaecyparis pisifera,Juniperus chinensis,Juniperus virginiana,Juniperus sabina,Juniperus phoenicea,Juniperus communis,Juniperus oxycedrus,Juniperus excelsa,Calocedrus decurrens,Cupressus sempervirens,Cupressus sargentii,Cupressus x leylandii,Cunninghamia lancelota,Cryptomeria japonica,Thuja occidentalis,Thuja standishii,Taxodium distichum,Metasequoia glyptostroboides,Taxus baccata,Taxus cuspidata,Cephalotaxus harringtonia,Torreya californica,Abies koreana,Abies pinsapo,Abies cephalonica,Picea abies,Picea asperata,Picea omorika,Picea chihuahuana,Picea orientalis,Picea smithiana,Picea pungens,Tsuga canadensis,Pinus pinea,Pinus mugo,Pinus sylvestris,Pinus tabuliformis,Pinus banksiana,Pinus pinaster,Pinus densiflora,Pinus nigra,Pinus ponderosa,Pinus resinosa,Pinus wallichiana,Pinus bungeana,Pinus strobus,Pinus peuce,Pinus heldreichii,Podocarpus neriifolius,Abies nordmanniana,Pinus armandii,Thuja koraiensis,Cedrus atlantica
0.084918,0.0941351,0.0811961,0.0870734,0.0808092,0.0748845,0.0790168,0.1242,0.0917495,0.00159492,0.0708126,0.1145,0.12358,0.0763275,0.113047,0.114806,0.0690973,0.0695998,0.0993727,0.0950438,0.0572829,0.115523,0.071882,0.0737093,0.0687584,0.071737,0.0992763,0.0680006,0.0846583,0.0523821,0.101634,0.0556009,0.0720708,0.0659817,0.0610033,0.0802787,0.0956499,0.0742419,0.0469483,0.04374,0.0958304,0.0945535,0.0996792,0.0728156,0.0402659,0.0596406,0.0966077,0.0703576,0.0881169,0.0715183,0.113794,0.105455,0.0963073,0.0946503,0.0958304,0.059908,0.107758
0.078938,0.0902273,0.0757067,0.0791527,0.0749546,0.0749459,0.0761369,0.123213,0.0870067,0.00431637,0.0670274,0.105441,0.1197,0.0706604,0.101777,0.102859,0.0712705,0.0684156,0.091282,0.0908182,0.0575391,0.119099,0.0668406,0.0689262,0.0643578,0.0757342,0.13746,0.101741,0.126024,0.0901939,0.127728,0.0721944,0.104313,0.0931784,0.0886383,0.107806,0.130611,0.0945075,0.0678091,0.0697271,0.11891,0.119998,0.121425,0.0961358,0.0664961,0.0973087,0.126843,0.0998788,0.126855,0.105416,0.148147,0.130145,0.148643,0.123646,0.11891,0.0594016,0.116935
0.0751768,0.0862078,0.0740574,0.0744464,0.0681997,0.0648146,0.0658716,0.102979,0.0815604,0.012075,0.0619875,0.0955,0.10358,0.0656532,0.0907339,0.0840397,0.0605234,0.0572719,0.0875092,0.0839181,0.0491644,0.0953967,0.055444,0.0591656,0.0517196,0.0501179,0.0864,0.0607587,0.0753482,0.0404294,0.0876089,0.0356332,0.0619203,0.0540752,0.0523355,0.0673412,0.0850938,0.0609727,0.0335535,0.0245346,0.0846729,0.0771574,0.082352,0.0586474,0.0199056,0.0501268,0.0805371,0.0605197,0.0765367,0.0643957,0.102406,0.085538,0.07921,0.0867727,0.0846729,0.0479121,0.0841897
0.0776703,0.0877099,0.0712587,0.074308,0.0690452,0.0678257,0.0680527,0.10756,0.0795559,0.0118369,0.0614925,0.0958522,0.099328,0.0626931,0.0937009,0.0806813,0.0592093,0.0582876,0.0874188,0.0814867,0.0501639,0.0994825,0.0613146,0.0635141,0.0623868,0.0567648,0.092916,0.0639821,0.0826929,0.0484453,0.0936495,0.0380566,0.0684243,0.0582377,0.0537616,0.0740318,0.0893298,0.0628721,0.0354578,0.0283203,0.0848378,0.0809111,0.0838229,0.0637847,0.0266708,0.0543001,0.0858739,0.0651539,0.0791236,0.0707233,0.103247,0.0889343,0.077978,0.0928526,0.0848378,0.0504505,0.0834894
0.095918,0.108978,0.0891283,0.0979885,0.0865601,0.101991,0.107876,0.18207,0.113126,0.00653792,0.0814287,0.167613,0.148453,0.0881328,0.160893,0.132967,0.0776928,0.0835456,0.111699,0.107071,0.0668231,0.15018,0.117943,0.115357,0.104769,0.109742,0.124447,0.0821053,0.105281,0.0733527,0.117434,0.0527774,0.0887965,0.0754892,0.070922,0.0924026,0.110518,0.0840012,0.0514006,0.0520169,0.107422,0.104067,0.110913,0.0826354,0.0464513,0.0820869,0.108998,0.0882292,0.106138,0.09086,0.126986,0.110402,0.099195,0.11362,0.107422,0.0734885,0.106555
0.156093,0.182656,0.152196,0.163809,0.15999,0.145476,0.14806,0.277807,0.190509,0.0496203,0.131619,0.276203,0.253323,0.138253,0.224493,0.228526,0.120425,0.118234,0.206696,0.192689,0.0999595,0.253432,0.159663,0.159515,0.179958,0.196068,0.20784,0.12324,0.16281,0.134318,0.181755,0.1001,0.137365,0.122723,0.105307,0.147998,0.176367,0.149074,0.116323,0.153707,0.178819,0.193149,0.189642,0.152329,0.145277,0.159317,0.203534,0.181292,0.174683,0.165977,0.193273,0.201389,0.15707,0.168642,0.178819,0.121106,0.174783
0.202898,0.243027,0.21408,0.219722,0.205349,0.164145,0.162543,0.317267,0.240776,0.0850026,0.168898,0.341674,0.324687,0.179125,0.252415,0.28809,0.151941,0.13198,0.281577,0.267336,0.119922,0.330405,0.154633,0.159306,0.189591,0.213875,0.203123,0.115611,0.156636,0.133566,0.192065,0.10253,0.132129,0.119404,0.102767,0.147121,0.182027,0.147978,0.115282,0.157213,0.18616,0.199384,0.193539,0.153068,0.139397,0.159127,0.206885,0.179785,0.172067,0.156347,0.187254,0.204837,0.149407,0.16732,0.18616,0.151714,0.179482
0.162814,0.1979,0.164495,0.171646,0.159364,0.135845,0.131702,0.2626,0.182388,0.0569925,0.13254,0.271082,0.258847,0.13953,0.201598,0.231196,0.119627,0.108454,0.225086,0.216808,0.0980076,0.265559,0.129855,0.136478,0.154704,0.175316,0.194917,0.115674,0.153835,0.128723,0.183142,0.105471,0.12805,0.117604,0.107082,0.138214,0.17309,0.132733,0.106838,0.140236,0.16894,0.184531,0.183419,0.142212,0.126846,0.149169,0.194607,0.162007,0.166028,0.14824,0.180548,0.194968,0.143857,0.159496,0.16894,0.120385,0.184925
0.10108,0.119811,0.0925491,0.0984735,0.0924334,0.0968268,0.0933656,0.18821,0.111586,0.00879953,0.078714,0.172569,0.175437,0.0859515,0.137645,0.143446,0.0756297,0.0808008,0.129186,0.129998,0.0640166,0.167357,0.0880318,0.0934557,0.104782,0.110836,0.213353,0.141495,0.179198,0.14085,0.18454,0.113745,0.138526,0.125759,0.125379,0.151925,0.181737,0.131143,0.103028,0.122973,0.15278,0.173126,0.175317,0.133076,0.115001,0.146524,0.181519,0.144817,0.171194,0.156213,0.186172,0.186309,0.17122,0.17213,0.15278,0.082437,0.206194
0.0825331,0.0903796,0.0728942,0.0746617,0.0707426,0.0768292,0.0690534,0.137657,0.0799001,0.0150772,0.0578838,0.124489,0.137403,0.0608301,0.0980359,0.105889,0.0600875,0.06615,0.094784,0.0965985,0.0449921,0.131344,0.0505759,0.0627749,0.0627155,0.0612803,0.161253,0.11547,0.144016,0.0885569,0.129349,0.0690001,0.103534,0.0895773,0.0945717,0.108847,0.155969,0.106708,0.0687915,0.079172,0.12242,0.124284,0.137963,0.100702,0.067569,0.106345,0.134032,0.106523,0.130859,0.117394,0.150035,0.129571,0.13429,0.147895,0.12242,0.0709928,0.154796
0.0503117,0.0556826,0.0384239,0.0394242,0.0368124,0.0461938,0.0401517,0.0834807,0.0414527,0.0387918,0.0313635,0.0648618,0.0824943,0.0340207,0.0531251,0.0526661,0.0392851,0.0426425,0.0499921,0.0534631,0.0264894,0.0796046,0.0252103,0.0338954,0.0296148,0.0246697,0.124803,0.0961387,0.115438,0.0641811,0.102818,0.0481221,0.085293,0.071627,0.0742348,0.0884618,0.128922,0.0816886,0.0423499,0.0431754,0.0978461,0.0912645,0.102351,0.0729117,0.0336947,0.0772882,0.0985902,0.0756232,0.105744,0.0894397,0.124888,0.094776,0.12683,0.118783,0.0978461,0.0414157,0.132493
0.0737312,0.0748481,0.0594016,0.0636307,0.0540527,0.0669138,0.0524664,0.120723,0.0639932,0.0214356,0.0515326,0.102225,0.105623,0.0520242,0.0707127,0.0752181,0.0529691,0.0521044,0.0760137,0.0752174,0.0425441,0.113952,0.0429327,0.049363,0.0545666,0.0509155,0.114287,0.0817438,0.100647,0.0604845,0.104599,0.0458528,0.0777235,0.0657395,0.0657271,0.0796795,0.115797,0.0663755,0.0322789,0.0323958,0.0862734,0.0843942,0.0908658,0.066135,0.0281366,0.0657582,0.0898703,0.0689932,0.0949413,0.079527,0.115479,0.0912034,0.107843,0.10684,0.0862734,0.0510789,0.110342
0.0738503,0.0801105,0.0601931,0.0628367,0.0565226,0.063394,0.0529394,0.122347,0.0687954,0.0200672,0.0514218,0.101337,0.11474,0.0563434,0.0730373,0.0790788,0.0544324,0.0506643,0.0810971,0.0806122,0.0406761,0.10709,0.0404183,0.0458572,0.0583704,0.0499859,0.128187,0.0917888,0.11424,0.0712891,0.109416,0.0532645,0.0864187,0.0735186,0.0697649,0.0897162,0.121851,0.0785673,0.0418849,0.0433461,0.0975434,0.0970702,0.0986701,0.0725013,0.0387158,0.0788619,0.104299,0.079541,0.105586,0.0902533,0.125811,0.103556,0.12685,0.113689,0.0975434,0.0452516,0.150346
0.0544883,0.0644373,0.0471256,0.0488519,0.0456906,0.046798,0.042793,0.0911133,0.0552687,0.0327657,0.0394057,0.0728033,0.0902477,0.0421976,0.0624078,0.0597433,0.0399262,0.0393636,0.0622569,0.0631098,0.030359,0.0797904,0.0340534,0.0390694,0.036817,0.0355665,0.0981037,0.0678725,0.085954,0.0472298,0.0900012,0.0359825,0.0645788,0.0544015,0.0541733,0.0694446,0.0907231,0.0574267,0.0280601,0.0218641,0.0798113,0.074699,0.0792543,0.0547997,0.0182876,0.0551018,0.0818608,0.0605012,0.0797747,0.0713323,0.103945,0.085291,0.104524,0.0891948,0.0798113,0.0302428,0.103449
0.0566671,0.0665141,0.0498225,0.050114,0.0468195,0.0456284,0.0435553,0.0886103,0.0574578,0.0305451,0.0402645,0.0719253,0.0885977,0.0426843,0.0603011,0.06113,0.0395257,0.0385441,0.0646164,0.0638189,0.0301285,0.0811061,0.0319332,0.0370746,0.0307719,0.0337857,0.0978253,0.0671772,0.0836376,0.0456814,0.0902618,0.0355497,0.0623973,0.053518,0.0562463,0.0694996,0.0910677,0.055232,0.0292398,0.025258,0.0808779,0.0761962,0.0826231,0.0581028,0.0234811,0.0571664,0.0852299,0.063127,0.0831592,0.0750077,0.10578,0.0873325,0.101952,0.0877807,0.0808779,0.0308262,0.0928956
0.0636497,0.0717444,0.0532133,0.0524263,0.0485596,0.0496421,0.0437737,0.0983977,0.0588189,0.028434,0.042216,0.0815606,0.0953103,0.045594,0.0627721,0.0633703,0.0413009,0.0398328,0.0698275,0.0697557,0.0322948,0.0872654,0.0317464,0.0383671,0.0367426,0.0350599,0.0937937,0.0628505,0.0802455,0.0407348,0.0879813,0.0353173,0.0598839,0.0523631,0.0550277,0.0671011,0.0866096,0.0556849,0.0262838,0.0229594,0.0772192,0.0744381,0.0812917,0.0562494,0.0191879,0.0511589,0.0801912,0.058261,0.0751113,0.0680893,0.10026,0.0876509,0.0968913,0.0869511,0.0772192,0.0358947,0.103083
0.0603845,0.0694291,0.0496557,0.0510977,0.0483102,0.0484783,0.0460695,0.0987233,0.0595781,0.0297198,0.0409278,0.0802499,0.0989783,0.0445827,0.0671394,0.0651931,0.0380184,0.0402191,0.0684695,0.0667203,0.0331177,0.0861917,0.0335085,0.038543,0.0331238,0.0394949,0.0885493,0.056181,0.0723043,0.0353964,0.0857108,0.0312204,0.0544442,0.0474758,0.051941,0.0613544,0.0790234,0.0459523,0.0209128,0.0151074,0.0707962,0.0672941,0.0759807,0.052161,0.0145665,0.0454673,0.07474,0.0520144,0.0695638,0.065141,0.0941894,0.0822966,0.104837,0.0796079,0.0707962,0.0367658,0.0951075
0.0503475,0.0574296,0.0388943,0.0386448,0.0366197,0.0416127,0.0384391,0.0833153,0.0450046,0.0384591,0.0307521,0.0634717,0.0844623,0.0344339,0.0537533,0.0550451,0.0309759,0.0357719,0.0519465,0.0543536,0.0245556,0.0704326,0.0255727,0.0325583,0.0219867,0.0281261,0.0958617,0.0635624,0.0814027,0.0425224,0.089413,0.0326436,0.0611768,0.0526106,0.0590567,0.06678,0.0942176,0.0551,0.0247868,0.0217312,0.0757597,0.0719178,0.0839187,0.0562933,0.0200548,0.054517,0.0781213,0.0580562,0.0776409,0.069127,0.102619,0.0809817,0.099503,0.087305,0.0757597,0.0344667,0.0964676
0.0284985,0.0341592,0.01891,0.0177807,0.0155775,0.015059,0.0119794,0.0348413,0.0202608,0.054919,0.0153904,0.0197928,0.036041,0.0156829,0.0191968,0.00769538,0.0146163,0.0105079,0.0241882,0.0235026,0.00926367,0.0287082,0.0032196,0.00585321,0.0111348,0.00791646,0.031629,0.0209537,0.0272308,0.00909109,0.0400189,0.0233434,0.0207942,0.0140361,0.0163844,0.023311,0.0366645,0.0123084,0.0174151,0.0350967,0.0347721,0.0218031,0.0299886,0.0106961,0.0351432,0.00968237,0.0246638,0.0158794,0.0250449,0.0205473,0.0558697,0.0294443,0.054295,0.0402642,0.0347721,0.00631452,0.0339957
0.0308828,0.0378572,0.0192458,0.0166577,0.0182204,0.018361,0.014306,0.039184,0.0232963,0.0511519,0.0173448,0.0209332,0.0399483,0.0186596,0.0155943,0.0128521,0.0138785,0.0112482,0.0297506,0.0281584,0.0122727,0.0285226,0.00391256,0.0090513,0.00953202,0.0065811,0.0367227,0.0209285,0.0275018,0.00689085,0.0418931,0.0220996,0.0196493,0.0155686,0.0141694,0.0249465,0.0382011,0.0151484,0.0122581,0.0275524,0.036502,0.0291907,0.0347154,0.0136668,0.0247643,0.00835319,0.0293186,0.0185224,0.0281963,0.022309,0.0565914,0.0383358,0.0555843,0.0414584,0.036502,0.00641553,0.0555401
0.0414987,0.0481327,0.0295143,0.0270325,0.0268516,0.0312336,0.0272014,0.0675097,0.0357076,0.043073,0.0267361,0.0429942,0.065583,0.029508,0.0358633,0.0348341,0.0207828,0.0222293,0.0435233,0.0411716,0.0177363,0.0511272,0.0129521,0.018527,0.0100585,0.0233177,0.0435923,0.0246514,0.0316877,0.00252693,0.0449479,0.0243496,0.0249712,0.0225029,0.0195356,0.0291426,0.0452976,0.0186128,0.00859393,0.0229155,0.0395152,0.0331625,0.0389536,0.0175652,0.0219424,0.00668254,0.0351659,0.0203315,0.0327682,0.0295253,0.0634216,0.047744,0.10657,0.045126,0.0395152,0.0112621,0.0588232
0.0557346,0.0628242,0.0425834,0.0431094,0.0400577,0.0391535,0.0353091,0.089236,0.0510958,0.0335432,0.0365851,0.0656584,0.086496,0.0395016,0.0520563,0.0491369,0.0367379,0.0303314,0.0591655,0.0595108,0.0265819,0.079035,0.0226704,0.0277736,0.0295265,0.0385725,0.10603,0.0682414,0.0853055,0.0488181,0.0905884,0.0379909,0.0693632,0.0620801,0.0535156,0.0723214,0.095671,0.0568456,0.024772,0.0290746,0.079632,0.0814574,0.0830676,0.0576221,0.0267173,0.0585517,0.0875524,0.0646045,0.0884224,0.0771507,0.106938,0.0907475,0.12191,0.087801,0.079632,0.024321,0.107152
0.0532228,0.0597554,0.0411387,0.038703,0.0384189,0.0390542,0.0280215,0.084613,0.0429527,0.0362806,0.0346139,0.0561273,0.0806643,0.0356901,0.0396903,0.0466297,0.0309492,0.0239711,0.0580756,0.0574822,0.0254884,0.0694832,0.0218225,0.027212,0.0283924,0.0297529,0.0734877,0.0385174,0.0567693,0.0172741,0.0638874,0.0280751,0.0394743,0.0370682,0.0349764,0.0465914,0.0547713,0.036755,0.0119743,0.00761083,0.0569477,0.0608129,0.0633917,0.0386531,0.0155557,0.0271828,0.0590761,0.0392889,0.0485837,0.048388,0.0797863,0.0752116,0.0964747,0.0649476,0.0569477,0.0173423,0.0846207
0.0414222,0.0456568,0.0276729,0.0263477,0.0223217,0.0307175,0.0257918,0.0660197,0.0314971,0.0470918,0.0239399,0.0408064,0.0653353,0.0250199,0.0344864,0.03412,0.0220833,0.0216466,0.0368537,0.0360277,0.0159529,0.0454194,0.0137552,0.0171326,0.00945917,0.0104446,0.068522,0.0459045,0.0602725,0.0155263,0.0588726,0.0278117,0.0433048,0.0337652,0.0314572,0.0487349,0.0613277,0.0389109,0.00729408,0.0049791,0.0578315,0.05059,0.0562988,0.0346528,0.00989045,0.0338347,0.0548649,0.0392033,0.0556471,0.0493847,0.0825705,0.05899,0.082181,0.0652649,0.0578315,0.00702909,0.0784721
0.040865,0.0383894,0.0225819,0.0231173,0.0152355,0.0255846,0.0161109,0.052966,0.0211919,0.0520005,0.0181373,0.0412682,0.0403127,0.019348,0.0224649,0.0154438,0.0164346,0.0146162,0.0295182,0.0262931,0.0112998,0.0378103,0.00365371,0.00906959,0.0107064,0.0145164,0.0330153,0.0273582,0.0367905,0.00808221,0.0378257,0.023602,0.0219454,0.0117866,0.018366,0.0242428,0.0419691,0.0199777,0.0174707,0.0347084,0.0350529,0.0187254,0.0333802,0.0120093,0.038348,0.00718889,0.0227492,0.0183996,0.0285245,0.0203533,0.0587541,0.0229043,0.0241673,0.048428,0.0350529,0.00676245,0.0294997
0.0163402,0.0178643,0.00403655,0.00264568,0.00240883,0.00394604,0.00100288,0.0145137,0.00155039,0.0684204,0.00263422,0.00323046,0.0102477,0.0017787,0.00212204,0.0138206,0.00134395,0.00148812,0.00167008,0.00116063,0.00414808,0.00428345,0.0113223,0.00569378,0.0240312,0.0353189,0.00859267,0.00859315,0.012395,0.0279399,0.0166255,0.0287858,0.0038422,0.00528422,0.00199354,0.00855788,0.0198125,0.00566442,0.0317483,0.0572587,0.020664,0.00190817,0.0199621,0.00995802,0.0581071,0.0158411,0.00673337,0.0137786,0.00625326,0.00380363,0.0408286,0.00325795,0.0074792,0.0258331,0.020664,0.0155969,0.00500968
0.0119903,0.0151142,0.00144736,0.000867722,0.00361423,0.00353135,0.00328756,0.00229423,0.00305436,0.0698892,0.00215361,0.00800363,0.0022834,0.00218239,0.00556614,0.0221665,0.0029956,0.00399135,0.00368924,0.00375974,0.00562309,0.00533766,0.0154263,0.0110052,0.03138,0.0417472,0.0007006,0.00368367,0.00823174,0.035409,0.0132513,0.0307761,0.00239624,0.0103185,0.00358736,0.00968095,0.0135484,0.00987211,0.0355642,0.0625178,0.016177,0.00996605,0.0225507,0.0163791,0.0626607,0.0239047,0.00910562,0.0157344,0.00360232,0.0006426,0.0322678,0.00600935,0.00437183,0.0183981,0.016177,0.0240844,0.0016798
0.00935923,0.0123502,0.00163392,0.00242526,0.00566374,0.00235294,0.00499449,0.0022685,0.00177577,0.0700978,0.00212443,0.00957757,0.00195203,0.00302308,0.00729231,0.0245391,0.00256643,0.00524968,0.00255449,0.00484447,0.00470772,0.00672105,0.0162358,0.0119338,0.02977,0.0438682,0.00136667,0.00325553,0.00824845,0.0357951,0.0128551,0.0324131,0.00341712,0.0110553,0.00516183,0.0106442,0.0124294,0.0102823,0.0382237,0.065491,0.0149249,0.011037,0.0230201,0.0183708,0.0642338,0.024837,0.00977128,0.0158196,0.00355313,0.00306667,0.0322366,0.00669738,0.00410527,0.0175222,0.0149249,0.0235674,0.00386667
0.0115543,0.0146496,0.000801768,0.0030726,0.00547654,0.00354635,0.00592341,0.0016309,0.00246726,0.0695934,0.00289736,0.00820141,0.00156667,0.00310922,0.00697885,0.0221532,0.00318322,0.00525194,0.00386175,0.00641776,0.00634952,0.0054785,0.0176442,0.013609,0.0298454,0.0433058,0.00316667,0.0036017,0.00826238,0.0369546,0.0116332,0.0312036,0.00169038,0.0106342,0.00542291,0.00958752,0.010608,0.0102281,0.0358151,0.063444,0.0163785,0.0106131,0.0233326,0.0184253,0.0635594,0.0253925,0.00903543,0.0165147,0.00350449,0.00403333,0.0329056,0.00525225,0.00170943,0.0176205,0.0163785,0.0263075,0.00446667
0.00972558,0.0140055,0.00239584,0.000456249,0.0068039,0.00121415,0.00876697,0.00159877,0.00132971,0.0709355,0.00170187,0.0111465,0.00150157,0.00382841,0.00496535,0.0257989,0.0048341,0.00570749,0.00288505,0.00718877,0.0095916,0.0101019,0.0139392,0.0107466,0.0320116,0.0459383,0.0009,0.00287013,0.00872579,0.0389268,0.0117271,0.031902,0.0037744,0.00825066,0.00883484,0.0100566,0.0122077,0.00913081,0.0368754,0.064344,0.0140014,0.0102251,0.0242015,0.0217851,0.0646528,0.0278699,0.0109083,0.0167702,0.00536314,0.00313333,0.0354521,0.0046076,0.00281973,0.0176192,0.0140014,0.0254013,0.00576667
0.0105804,0.00974853,0.00370426,0.0016927,0.0110423,0.0113088,0.0118092,0.0032133,0.010171,0.0749994,0.00726164,0.0134674,0.00199143,0.00320656,0.0117163,0.025116,0.00521328,0.00890839,0.00937926,0.00842258,0.0071765,0.0124919,0.017361,0.0162095,0.0390772,0.0496385,0.00633333,0.0023917,0.0107039,0.0408576,0.0120585,0.0313462,0.0080449,0.0191481,0.00579808,0.0109208,0.0128736,0.0159454,0.0474673,0.0769951,0.0168331,0.0161137,0.0238417,0.0208439,0.0743097,0.028025,0.0101648,0.0183431,0.0048018,0.00483333,0.0274602,0.012308,0.000796333,0.0169253,0.0168331,0.027842,0.00856667
0.0180497,0.0202857,0.000565515,0.0020364,0.00943424,0.00157389,0.00753124,0.0016583,0.00335962,0.0722852,0.0040154,0.0124352,0.000961633,0.00373495,0.00281168,0.0303182,0.00391707,0.00343601,0.00137113,0.00683547,0.00360264,0.00926685,0.0118443,0.012523,0.0307388,0.0435839,0.00119,0.0066641,0.00818155,0.0378398,0.0110624,0.0338111,0.00140843,0.00324142,0.00328185,0.00986539,0.0130963,0.01082,0.0341854,0.0632536,0.0154016,0.0101215,0.0252021,0.0171204,0.0626115,0.0242441,0.00863817,0.0159015,0.00518236,0.0049,0.0298061,0.00568886,0.00396703,0.0207474,0.0154016,0.0254843,0.0039
0.0122238,0.0176528,0.00186013,0.00307699,0.0041982,0.00285634,0.00413324,0.00218143,0.0024406,0.0616107,0.00393111,0.00520671,0.0031835,0.00396085,0.00648477,0.0200058,0.00281324,0.00212943,0.00122183,0.00362739,0.00488165,0.00635769,0.0168527,0.0116375,0.0315874,0.0434855,0.0036,0.00311674,0.00792723,0.0389064,0.0147598,0.0329827,0.00078009,0.0113728,0.00548375,0.0100841,0.0114423,0.0122935,0.0348804,0.0633856,0.0175147,0.00864999,0.0202965,0.0209603,0.0610031,0.0236086,0.00717532,0.0150972,0.00488359,0.00636667,0.0312126,0.00511775,0.00245473,0.0119849,0.0175147,0.0234926,0.00227783
0.0149121,0.0206183,0.0016335,0.00149655,0.00529236,0.00259537,0.00496403,0.00403607,0.00253669,0.0653297,0.00305837,0.00584711,0.00470833,0.000840887,0.00320176,0.0233613,0.00222429,0.00261035,0.00102499,0.00154392,0.00388556,0.0047647,0.0137152,0.00942214,0.0323891,0.0384512,0.000695033,0.00508797,0.0081655,0.0333193,0.0124798,0.0297487,0.000801414,0.00510778,0.00246302,0.0096449,0.0133198,0.00879466,0.0362573,0.0635324,0.0136872,0.00981102,0.0235911,0.0162486,0.0625449,0.0223528,0.00932427,0.0145725,0.00439205,0.00113333,0.0363672,0.00351309,0.00675947,0.0188603,0.0136872,0.0226843,0.003
0.0144084,0.0168707,0.0011899,0.000573647,0.00121285,0.00150442,0.00137263,0.00228183,0.00175489,0.0715981,0.00232205,0.00843928,0.00168437,0.0022679,0.00131476,0.0242416,0.00506519,0.0028847,0.00499266,0.00716353,0.00536427,0.00946505,0.0153417,0.012049,0.0323943,0.0419713,0.0015,0.00272614,0.00770413,0.0401942,0.0131763,0.029656,0.00255408,0.00603548,0.00269762,0.0107597,0.0115739,0.00843749,0.0352646,0.0635454,0.0159591,0.00790146,0.0230861,0.0152404,0.0648154,0.0225033,0.00901331,0.0150733,0.00317201,0.00123333,0.0369995,0.00348769,0.0052776,0.0160279,0.0159591,0.0227599,0.00316667
0.00670625,0.0126122,0.00683931,0.00115676,0.0138495,0.0072876,0.0129012,0.0017602,0.00846798,0.0751784,0.00615161,0.0158727,0.00238083,0.00906101,0.00895076,0.0278032,0.0119546,0.00353044,0.0107042,0.0140115,0.0118597,0.0167642,0.0200622,0.0166253,0.0341428,0.0365906,0.0072,0.00392533,0.0118961,0.0285735,0.0136793,0.0315111,0.00534311,0.0119362,0.00636117,0.0112888,0.0137624,0.0111207,0.0403887,0.0691227,0.011128,0.00998517,0.0233851,0.0163282,0.0665337,0.0228049,0.00766567,0.0177187,0.00231202,0.00656667,0.0306337,0.00875765,0.0008956,0.0158055,0.011128,0.0220382,0.0100667
0.0110981,0.0138184,0.00240274,0.00173371,0.00635868,0.00213043,0.0031996,0.0032365,0.00219498,0.0680589,0.00390378,0.00831397,0.00253083,0.00279905,0.00228881,0.0214337,0.00324737,0.00677937,0.00289429,0.00473466,0.00210751,0.00641492,0.0159826,0.0122217,0.0299524,0.0372795,0.000590767,0.00436596,0.0097752,0.0324992,0.0148046,0.0291485,0.00645158,0.00949181,0.00210816,0.0097784,0.0121785,0.00923122,0.0325334,0.0575756,0.0157688,0.0117374,0.0235158,0.0133507,0.0573779,0.0219481,0.0087691,0.0150112,0.00359203,0.00219387,0.030695,0.00775594,0.00437333,0.0193115,0.0157688,0.0244749,0.0035
0.00960778,0.013464,0.00220671,0.00191947,0.00559333,0.00182631,0.00354639,0.00224103,0.00186341,0.0685687,0.00179039,0.00622315,0.00190127,0.00313257,0.00135944,0.0245985,0.00495125,0.00543456,0.00140009,0.00336713,0.00575211,0.00317137,0.0170439,0.0110036,0.0343794,0.0352679,0.00128943,0.00342888,0.00908283,0.0302111,0.010917,0.0312869,0.00432134,0.0092279,0.0044093,0.0084714,0.0110857,0.00763057,0.0333267,0.0597866,0.011914,0.00583309,0.0218986,0.0157773,0.0601833,0.0232662,0.0102777,0.0141531,0.00342477,0.00273333,0.0400986,0.00250052,0.00366433,0.0176022,0.011914,0.021744,0.00303333
0.0137297,0.01807,0.000448194,0.00143081,0.00238695,0.0024969,0.00124198,0.00312987,0.00198659,0.0654492,0.00249315,0.00472136,0.0035026,0.00182727,0.00320064,0.0213725,0.00301868,0.00225204,0.00124025,0.000673475,0.00251055,0.00461714,0.0140263,0.0113025,0.0290021,0.0392298,0.000929567,0.00308673,0.00762348,0.0335097,0.0143742,0.0304985,0.0008099,0.0102955,0.0026492,0.00898047,0.012399,0.0107131,0.0339752,0.0611607,0.0159046,0.0107426,0.021472,0.0160253,0.0606901,0.0216569,0.00864452,0.0143907,0.00395926,0.00313333,0.0346993,0.00544979,0.0069812,0.0188523,0.0159046,0.0240177,0.0014
0.0136649,0.018302,0.00242481,0.00150526,0.003401,0.00138378,0.00166045,0.0037026,0.00327126,0.0667719,0.00350638,0.00797329,0.00424613,0.00352663,0.00236768,0.0218761,0.00185261,0.00217999,0.000576572,0.00169873,0.00220489,0.00571923,0.0120901,0.0103416,0.0252094,0.035601,0.0031,0.00551982,0.00840534,0.0322884,0.0130268,0.0298337,0.00234364,0.00600244,0.00321166,0.00831213,0.0149368,0.00869393,0.0343814,0.0608834,0.0159849,0.00312679,0.021276,0.0144098,0.0593783,0.017323,0.00833049,0.0139143,0.00499784,0.0006691,0.0374815,0.00266366,0.00672977,0.0198283,0.0159849,0.0220799,0.00156667
0.0126553,0.014632,0.0037429,0.00281378,0.00365463,0.0011854,0.00619126,0.0022061,0.00151487,0.0678377,0.00252605,0.0125381,0.00129273,0.00289955,0.00148454,0.0197997,0.00165995,0.00383044,0.00307019,0.00451304,0.00151675,0.0105456,0.013156,0.0118481,0.0266515,0.0337577,0.0164,0.00385099,0.00985145,0.0329213,0.0144765,0.0289096,0.00335891,0.00697251,0.00243846,0.00999451,0.0119038,0.00663351,0.0350034,0.0582735,0.015276,0.00146486,0.0217441,0.0106019,0.0545693,0.0137115,0.00906947,0.0129244,0.00738482,0.0011,0.0406312,0.00435906,0.00501123,0.0176994,0.015276,0.0241033,0.00165027
0.0126875,0.01674,0.000678248,0.000173683,0.00614924,0.00423367,0.00726393,0.0021495,0.00183264,0.0696904,0.00243054,0.0116804,0.00184787,0.00240109,0.00502302,0.0224533,0.00273177,0.00596585,0.00350253,0.00491663,0.00542306,0.00756188,0.0165433,0.0134823,0.0283598,0.03898,0.0041,0.00369249,0.00777211,0.0344582,0.0132515,0.0302723,0.000773745,0.00905728,0.00574847,0.0105447,0.0122997,0.0098109,0.0369263,0.06367,0.0144064,0.00859164,0.0207647,0.0170633,0.0636605,0.0202105,0.00888398,0.0154822,0.0037224,0.0027,0.0339445,0.00544086,0.00450353,0.0181071,0.0144064,0.0236271,0.0033
0.0138977,0.0187719,0.000934314,7.818e-05,0.00586245,0.00217522,0.00536636,0.00235307,0.00169539,0.0685545,0.00198792,0.00620788,0.00212213,0.00259771,0.00406307,0.0233542,0.00348258,0.0034024,0.00191993,0.00246495,0.00320098,0.0045639,0.0143226,0.0104953,0.0289179,0.0384141,0.00176667,0.00381946,0.00720407,0.034526,0.0126221,0.0308036,0.000844046,0.00884805,0.00260819,0.0101547,0.0132764,0.00923773,0.0369218,0.0628808,0.0142732,0.0104068,0.0213356,0.0151504,0.0628191,0.0217938,0.00852587,0.0152739,0.00379863,0.000766667,0.0330173,0.00494618,0.0057049,0.0175513,0.0142732,0.0230591,0.00186667
0.0156607,0.0212629,0.00196886,0.00281901,0.00378724,0.00118829,0.00482232,0.00267787,0.00130658,0.0677519,0.00311675,0.00771688,0.0023568,0.00240039,0.0025102,0.0223699,0.00243669,0.00419236,0.00149169,0.00209585,0.00489259,0.00500836,0.0131278,0.00913662,0.0265736,0.0356622,0.000715667,0.00346787,0.00811776,0.0332258,0.0135269,0.0313554,0.00169895,0.00640154,0.00384518,0.00909876,0.0137219,0.0105872,0.035613,0.0627686,0.0151929,0.00955978,0.0210724,0.0157252,0.0629718,0.0218507,0.00879611,0.0150099,0.00308735,0.00146667,0.0340296,0.00330266,0.00769263,0.0187242,0.0151929,0.0245313,0.0019
0.0162591,0.02115,0.00331454,0.00218565,0.00371525,0.00154308,0.00396258,0.00398313,0.00294808,0.0642327,0.00388181,0.00817368,0.0041202,0.00260816,0.00271168,0.0199903,0.0021438,0.00347443,0.00284738,0.000719789,0.00269382,0.00507996,0.0124271,0.00962081,0.0272025,0.0368735,0.0007813,0.00375376,0.00795848,0.0332483,0.0147207,0.0300344,0.000911058,0.00844006,0.00249793,0.0085689,0.012531,0.00994148,0.0354567,0.0614767,0.0175429,0.00975792,0.0207467,0.0153412,0.0611828,0.0216605,0.00780649,0.0148417,0.00343218,0.0016711,0.0332111,0.00414664,0.00840363,0.0186583,0.0175429,0.0211151,0.00139263
0.0170443,0.0213723,0.00366064,0.00447449,0.00213982,0.000566502,0.00184845,0.00540017,0.00296137,0.0658151,0.00380716,0.00407653,0.006335,0.00171421,0.00118373,0.0192133,0.00262055,0.000650649,0.00512345,0.00154997,0.00281158,0.000502224,0.0094323,0.00729134,0.0224466,0.0332896,0.00242067,0.00370444,0.00849948,0.0306339,0.0137411,0.0309918,0.00168903,0.00658949,0.0012339,0.00836615,0.0142696,0.0100562,0.0329515,0.0583753,0.0176135,0.00767902,0.021126,0.013424,0.058312,0.0202693,0.00712932,0.0155659,0.00496319,0.000588033,0.0358521,0.00290682,0.0109837,0.0181383,0.0176135,0.021996,0.00103123
0.0174003,0.0223011,0.0048043,0.00377299,0.00318528,0.000874476,0.00414903,0.00756867,0.00457334,0.0644818,0.00357093,0.00530839,0.00837443,0.00358878,0.00135492,0.0186056,0.00208431,0.00377598,0.00365707,0.00150331,0.00354669,0.00194812,0.011695,0.00878423,0.0256577,0.0331137,0.005281,0.0039537,0.00706299,0.0302978,0.0147873,0.029082,0.000431628,0.00422507,0.00222805,0.0089918,0.0143948,0.00818693,0.0337882,0.0594465,0.0163037,0.0039996,0.0186549,0.0111238,0.0589432,0.0170179,0.00669192,0.0134208,0.00574324,0.0019392,0.0378368,0.00350835,0.0139103,0.0190686,0.0163037,0.0207644,0.0041092
0.0180488,0.0238273,0.00766181,0.00558605,0.00225246,0.00305073,0.000520992,0.010643,0.00622709,0.0636448,0.00562786,0.00106291,0.0111337,0.00698784,0.00404949,0.0154029,0.0044013,0.000881671,0.00690812,0.0041572,0.000867475,0.0025902,0.0110166,0.00786067,0.0203244,0.0290623,0.00731473,0.00813531,0.0111886,0.0272988,0.017236,0.0277549,0.00658703,0.00263137,0.00165061,0.00778038,0.0147079,0.00709224,0.0308093,0.0559367,0.0179939,0.00252533,0.0170321,0.00853309,0.0555724,0.0166179,0.00653827,0.0121964,0.00654242,0.00572563,0.0401679,0.00473127,0.0170553,0.0231496,0.0179939,0.0196414,0.00667533
0.021031,0.026613,0.0101809,0.00979438,0.00195386,0.0045935,0.00154603,0.0108006,0.0082655,0.0615771,0.00719672,0.000641485,0.0116286,0.00742879,0.00404442,0.0134405,0.00517618,0.00113234,0.00947785,0.00597554,0.0015162,0.00317687,0.0065202,0.00376167,0.01937,0.0279071,0.0083735,0.00830313,0.0119455,0.0259507,0.0184673,0.0273129,0.00661306,0.00267824,0.00365805,0.00804342,0.0151427,0.00629989,0.0286698,0.0532057,0.020118,0.0016486,0.0172047,0.00712602,0.0528104,0.0157466,0.00754713,0.0118988,0.00882325,0.0074903,0.042614,0.00665396,0.0167133,0.0233852,0.020118,0.0178795,0.009704
0.0190858,0.0249515,0.00847679,0.0076807,0.00312577,0.00457657,0.00179613,0.0119063,0.00929814,0.0621546,0.00806125,0.00125039,0.0127773,0.00702773,0.00579774,0.0126379,0.00428712,0.000254909,0.00955555,0.00597274,0.00104018,0.00418519,0.00761498,0.00416227,0.0193263,0.0268613,0.0098384,0.00856874,0.0132316,0.0249804,0.0196703,0.0268835,0.00707009,0.00384667,0.00270305,0.0100772,0.0153967,0.00600658,0.0290996,0.0528211,0.0201052,0.00235418,0.0166504,0.0054273,0.0526129,0.0155812,0.00812234,0.0122416,0.00972651,0.0067359,0.0436787,0.0092129,0.018666,0.0238793,0.0201052,0.0182537,0.011315
0.0199432,0.0254643,0.00966418,0.00861885,0.00357447,0.00427452,0.00168135,0.0135,0.00923048,0.0615387,0.00721852,0.00106987,0.014806,0.00606802,0.00655497,0.0126662,0.00346185,0.000978959,0.00836589,0.00688887,0.00112918,0.00325111,0.00754283,0.00526582,0.0186247,0.0249906,0.0106626,0.00895144,0.0128737,0.0219949,0.0183532,0.0265701,0.00705489,0.00526036,0.00369106,0.0100063,0.0173696,0.00550374,0.0272493,0.0508425,0.0205537,0.00363195,0.0187684,0.00496154,0.0507345,0.0148057,0.00909592,0.0128553,0.0103855,0.00790893,0.045836,0.0108694,0.0193577,0.0252851,0.0205537,0.0179725,0.014136
0.0217088,0.0280058,0.010664,0.00950575,0.0038834,0.00540838,0.00262172,0.0140273,0.010724,0.0634692,0.00889527,0.00204429,0.0151577,0.00889566,0.00719415,0.0115827,0.00617772,0.00138443,0.0117943,0.00904485,0.00139111,0.00553372,0.00684449,0.00310054,0.0187832,0.0232485,0.0119763,0.00958275,0.0134312,0.0215421,0.0211572,0.0259166,0.00743771,0.00599327,0.00397863,0.011965,0.0185767,0.00529367,0.0281539,0.0509313,0.0223471,0.00324649,0.0165521,0.00492611,0.0506888,0.014345,0.0091936,0.0116475,0.0105306,0.00795737,0.0438841,0.0107961,0.019962,0.0253211,0.0223471,0.0156137,0.0158193
0.024063,0.0303037,0.0131774,0.0120702,0.00629716,0.00772226,0.00482201,0.0189807,0.0126252,0.0590815,0.010105,0.00792393,0.020622,0.0103751,0.0102806,0.00598831,0.0072312,0.00229355,0.0138323,0.0125365,0.00228416,0.0110525,0.00479465,0.00177554,0.0138343,0.0207268,0.018417,0.0152195,0.018463,0.0173438,0.0257745,0.0255155,0.0115026,0.00792575,0.00893979,0.0158398,0.0215105,0.00461287,0.0237649,0.0451125,0.0263031,0.00724699,0.0175096,0.00295343,0.0451619,0.0129518,0.0150187,0.0144901,0.0162816,0.01396,0.0473098,0.0145388,0.026395,0.0314329,0.0263031,0.0135826,0.0214517
0.0379758,0.0443518,0.0282584,0.0287706,0.0205753,0.0286212,0.0243395,0.0555567,0.0288213,0.0504661,0.02075,0.0412279,0.057098,0.0231444,0.037914,0.0297112,0.0175463,0.0207351,0.0323122,0.0312526,0.0119262,0.0397635,0.00867736,0.0163093,0.0103445,0.00734727,0.0686653,0.0511531,0.0637332,0.0204398,0.0620895,0.0284839,0.0424202,0.0329281,0.0442008,0.049134,0.0656549,0.03855,0.00718998,0.00355515,0.056671,0.041777,0.0587726,0.0316543,0.0102491,0.0376977,0.0556427,0.0408744,0.0565002,0.0500263,0.0817043,0.0521078,0.0661237,0.0700969,0.056671,0.0166131,0.061216
0.037479,0.0452414,0.0289564,0.0293789,0.0206513,0.0256958,0.0215678,0.0516527,0.0310012,0.0497594,0.0216124,0.0360672,0.0532957,0.0216098,0.0359135,0.0244159,0.0166298,0.0159907,0.0312267,0.0317757,0.0107653,0.0378011,0.00920158,0.0152507,0.00953879,0.00820394,0.054354,0.037743,0.049216,0.00776145,0.0503506,0.0252429,0.0339022,0.0294165,0.0325863,0.0388558,0.0501176,0.0259148,0.00155242,0.0124054,0.0472915,0.0352915,0.0462507,0.0268134,0.0151849,0.027241,0.04768,0.0346713,0.0464735,0.041183,0.072238,0.0463747,0.056013,0.0557809,0.0472915,0.00722648,0.058096
0.0603298,0.0651911,0.0472215,0.0530862,0.0448017,0.0675284,0.0588793,0.127213,0.0561851,0.0360912,0.0362898,0.107677,0.125947,0.0417777,0.0859513,0.0929353,0.034677,0.0533025,0.0574229,0.0607231,0.0238181,0.0989708,0.0365681,0.0511133,0.0297118,0.0348112,0.147193,0.105188,0.131518,0.0784925,0.112129,0.0572928,0.08816,0.0746317,0.0968931,0.0964002,0.14852,0.0984613,0.0574787,0.0685466,0.101354,0.097248,0.125037,0.0794425,0.0503142,0.105117,0.119274,0.0960482,0.11683,0.10871,0.133519,0.109437,0.127543,0.131787,0.101354,0.0678657,0.127887
0.0359757,0.0404515,0.0232315,0.0238427,0.0182385,0.0247495,0.0214826,0.053651,0.0255223,0.0539739,0.0163766,0.0369205,0.0531753,0.0186079,0.0348299,0.024677,0.015124,0.018192,0.0292702,0.0300299,0.00836832,0.0418141,0.00758894,0.0150808,0.0102639,0.00871868,0.0529773,0.0371115,0.0471298,0.00801835,0.0511734,0.0263986,0.031488,0.0312829,0.0317946,0.0395473,0.0526861,0.026643,0.00280135,0.0131501,0.0462335,0.0356783,0.0485967,0.0260757,0.0169847,0.0264658,0.0458935,0.0327476,0.0452544,0.0393447,0.071281,0.0468147,0.0506047,0.0572086,0.0462335,0.00869414,0.0630603
0.0258029,0.0311364,0.0136018,0.0136807,0.00660469,0.0101426,0.00427734,0.024822,0.0133713,0.0556327,0.0107985,0.0129978,0.026667,0.010676,0.0121844,0.00388069,0.00707692,0.00437726,0.01845,0.0171169,0.00213108,0.016689,0.00437996,0.00188367,0.0146633,0.0198193,0.0197643,0.0124746,0.019006,0.0189451,0.027193,0.0229344,0.0120415,0.0139531,0.00892374,0.0172374,0.0228504,0.00436663,0.0218821,0.0411068,0.0249284,0.010027,0.0204602,0.0034283,0.0402978,0.0124927,0.0166204,0.015214,0.0164048,0.0121269,0.048557,0.0199214,0.0260203,0.0298357,0.0249284,0.0115918,0.0354817
0.0249907,0.0316539,0.0182873,0.0148611,0.00835642,0.00880883,0.00537777,0.025048,0.0180873,0.0570564,0.0121232,0.0107109,0.0267983,0.0122272,0.0158142,0.00405692,0.00737461,0.00347262,0.0190801,0.0167171,0.00253622,0.0157622,0.00532791,0.00158995,0.0137812,0.0159778,0.0194553,0.0133751,0.0187722,0.0163002,0.0262389,0.0230448,0.0131868,0.0182548,0.00893865,0.0156735,0.0223818,0.00367306,0.0210792,0.0405778,0.0251927,0.0105747,0.0214383,0.0035496,0.0382068,0.0126293,0.0177376,0.0152479,0.0161448,0.0144003,0.0483348,0.0219148,0.027588,0.0286396,0.0251927,0.0134733,0.0408183
0.030254,0.039146,0.0189326,0.0237188,0.0144054,0.011231,0.00967483,0.0307227,0.0232506,0.0544824,0.01551,0.0184474,0.0337953,0.0137421,0.0208554,0.00923983,0.0100004,0.00416242,0.0280085,0.0264759,0.00658459,0.0206067,0.00390711,0.00696858,0.0130773,0.0120034,0.0258403,0.0155876,0.0208961,0.0144587,0.0314693,0.0228689,0.0141708,0.023445,0.0114851,0.0217757,0.0227592,0.00491974,0.0185477,0.0345187,0.027439,0.0144059,0.025623,0.00534179,0.0334002,0.0112368,0.0211664,0.017033,0.0186698,0.0172007,0.0511578,0.028211,0.032066,0.0309414,0.027439,0.013611,0.0510123
0.0358032,0.0453371,0.0272014,0.0257785,0.0163634,0.0140949,0.0106404,0.037215,0.0255729,0.0494704,0.0171391,0.0232692,0.0418153,0.0189627,0.025182,0.0139675,0.0145976,0.00874381,0.0338901,0.0346469,0.00897092,0.0262591,0.0049025,0.00790859,0.0114003,0.0091276,0.0306753,0.0209156,0.0255628,0.00768726,0.0377767,0.022291,0.0188469,0.0283158,0.017488,0.0261196,0.0241267,0.0079171,0.0138119,0.0287907,0.0337424,0.0219238,0.0299003,0.0147688,0.0251436,0.00912529,0.034486,0.0215289,0.0288233,0.0241523,0.0551964,0.033462,0.0358747,0.036557,0.0337424,0.00999305,0.0596667
0.041053,0.0515032,0.0299737,0.0293138,0.0232883,0.0178442,0.017917,0.046782,0.0337641,0.0446828,0.0229811,0.0374862,0.0519747,0.0230936,0.0352085,0.0234351,0.0164712,0.0118226,0.0410605,0.0405542,0.0124919,0.0382365,0.00923311,0.0136574,0.00848011,0.00715801,0.0371827,0.0241355,0.0323849,0.00197282,0.044418,0.0258083,0.0257623,0.0360017,0.0210018,0.0324232,0.0304368,0.011795,0.00797922,0.0221687,0.0380607,0.0288421,0.0359199,0.0180279,0.0182538,0.012447,0.0366266,0.0241607,0.032122,0.0287613,0.0604872,0.0434066,0.0414523,0.0405861,0.0380607,0.00766749,0.072037
0.0438435,0.0554454,0.0368957,0.0373371,0.0281607,0.020225,0.0214106,0.0575657,0.0397793,0.0414032,0.0245072,0.0480948,0.063971,0.0288513,0.0394856,0.0347854,0.021842,0.0132357,0.0501514,0.0524129,0.0171889,0.0465629,0.0168737,0.0202651,0.00932763,0.00894818,0.0458297,0.0276321,0.0344554,0.00198661,0.052211,0.0268021,0.0268579,0.0428862,0.0276816,0.0390079,0.0338957,0.0163692,0.00363996,0.0150983,0.044557,0.0352508,0.0426127,0.0210916,0.0164554,0.0171023,0.0447864,0.0285477,0.0370604,0.035754,0.0649967,0.0514121,0.047529,0.044248,0.044557,0.00579299,0.087263
0.0484125,0.0591087,0.0358088,0.0411782,0.0330087,0.0217885,0.0227731,0.0637793,0.0417566,0.0398151,0.0251256,0.0515706,0.071259,0.0309553,0.048137,0.0418123,0.0215949,0.0139999,0.0539061,0.0550483,0.0157396,0.0513085,0.0198073,0.0210658,0.0140167,0.0136809,0.0522713,0.0317698,0.0410151,0.0123885,0.05558,0.0255732,0.0322738,0.0501608,0.0287432,0.042013,0.0379503,0.020742,0.00328769,0.00978078,0.0448693,0.0431289,0.0479925,0.028203,0.0155209,0.0240572,0.0522831,0.0364293,0.0425801,0.0413587,0.0732846,0.0598914,0.0508277,0.0488046,0.0448693,0.00739197,0.0962583
0.0513523,0.0621557,0.0433184,0.0442113,0.033949,0.0251413,0.0266269,0.0719247,0.0450672,0.0398619,0.0291088,0.0557602,0.0774,0.033161,0.0500661,0.0494919,0.0255992,0.0174976,0.0591531,0.0607819,0.018629,0.0533815,0.0236724,0.0255679,0.0153989,0.0189103,0.0593557,0.0337416,0.0458204,0.0157024,0.0604886,0.0281183,0.037933,0.0522634,0.0339826,0.0451792,0.0419441,0.0225206,0.00681788,0.00760937,0.04959,0.0466723,0.0522107,0.0313333,0.0130563,0.0274348,0.0559586,0.0396553,0.0471376,0.0453023,0.0748055,0.0630922,0.055539,0.051277,0.04959,0.00673234,0.103354
0.0530353,0.0657323,0.0466326,0.0470091,0.0359035,0.0300526,0.0274454,0.073559,0.0497584,0.0377963,0.0319175,0.0629762,0.0804077,0.0353951,0.0532595,0.0521655,0.0257799,0.0181884,0.0611253,0.0609018,0.0190636,0.0611143,0.0242573,0.026907,0.0186507,0.0214369,0.0618843,0.0374345,0.0486623,0.0211365,0.0615539,0.0292521,0.0382104,0.0559078,0.0371353,0.0508382,0.0453334,0.0256776,0.00945649,0.00724507,0.0520068,0.0495243,0.0555248,0.0330218,0.0137969,0.0311304,0.0584127,0.0419251,0.0482522,0.04912,0.0769804,0.0682591,0.0562083,0.0527396,0.0520068,0.00745556,0.105463
0.0518635,0.0610199,0.0428453,0.0456369,0.0346509,0.0279014,0.0271124,0.073016,0.0492272,0.0368515,0.0311036,0.0599548,0.0789993,0.0327777,0.0533532,0.0532156,0.0243398,0.016558,0.0599506,0.0598367,0.0193741,0.0557015,0.0254092,0.0260286,0.0174971,0.0215247,0.062002,0.0395531,0.0501247,0.0231632,0.0636421,0.0289786,0.0388744,0.0566537,0.0372311,0.0482784,0.0441827,0.0281281,0.00888454,0.00732113,0.0486968,0.0527,0.055408,0.0344305,0.0134274,0.0315876,0.060344,0.0418236,0.0496314,0.0507907,0.0808549,0.0707575,0.0566567,0.0550712,0.0486968,0.00747076,0.101691
0.0506589,0.0610505,0.0431075,0.0465931,0.0344321,0.0298159,0.0257369,0.0716257,0.0497342,0.0383271,0.0349361,0.0595494,0.07637,0.0348465,0.0494735,0.0470059,0.0256688,0.0207341,0.058896,0.057057,0.0174602,0.0567094,0.0232253,0.0242251,0.0143501,0.0162057,0.0609927,0.0388669,0.0495873,0.0209594,0.0623186,0.0283348,0.0371091,0.0522483,0.0368645,0.0476277,0.0444629,0.0264902,0.00856677,0.0066531,0.0539266,0.0481112,0.0562833,0.0353724,0.0120414,0.0345068,0.0630686,0.0451254,0.0557796,0.0480963,0.0781984,0.065195,0.0558327,0.0531016,0.0539266,0.00708286,0.0975837
0.0459068,0.0555397,0.0362471,0.0388495,0.0260908,0.0229093,0.0208826,0.0637907,0.0378905,0.0445506,0.0244891,0.0516243,0.0675597,0.0286333,0.0428917,0.0435003,0.0204564,0.0139106,0.0473574,0.048564,0.0131001,0.0481959,0.0182261,0.0200067,0.0114786,0.00910967,0.0551697,0.0353529,0.0485031,0.00833628,0.0600993,0.0276229,0.0380571,0.0443918,0.0316288,0.0446047,0.0382925,0.0213783,0.00387314,0.00798066,0.0490006,0.0444434,0.0479323,0.029794,0.0138559,0.0287256,0.0545736,0.0392576,0.0467571,0.0445887,0.0747344,0.0587338,0.05048,0.0495386,0.0490006,0.00647704,0.086935
0.0404809,0.0479403,0.0306415,0.0302953,0.0213271,0.0204197,0.0189269,0.0517847,0.0321504,0.0494342,0.0220905,0.0449627,0.055118,0.0212257,0.0322844,0.0305524,0.015818,0.0121241,0.0384681,0.0420023,0.0114785,0.0411688,0.0110342,0.0134218,0.0103113,0.00865664,0.0469397,0.0257736,0.0384883,0.00169798,0.0488261,0.0281408,0.0274714,0.0350774,0.0232066,0.0390853,0.0341261,0.018772,0.00198801,0.0140059,0.0414013,0.0314642,0.0428635,0.0202067,0.0127397,0.0186483,0.0413808,0.0273586,0.0378572,0.0367103,0.0660603,0.0449562,0.0419787,0.0397598,0.0414013,0.00881265,0.0716467
0.0350208,0.042297,0.0225724,0.0247659,0.0161303,0.0137897,0.0115287,0.041579,0.0213045,0.0516395,0.0140069,0.0312421,0.0431207,0.0163691,0.0259362,0.0206407,0.0127343,0.00481899,0.0324406,0.0311921,0.00365648,0.0307761,0.00595074,0.00867642,0.0114378,0.0124472,0.0349453,0.0262001,0.0341711,0.0039405,0.0379105,0.0241705,0.024258,0.0263752,0.0154985,0.0288003,0.0263564,0.0152702,0.0127539,0.030051,0.0328693,0.0266439,0.0344856,0.0141604,0.0263581,0.0131474,0.0352258,0.0230711,0.0315892,0.0295683,0.0622317,0.0353107,0.0339887,0.0401039,0.0328693,0.011389,0.0533857
0.0287929,0.032362,0.0179127,0.0150678,0.00649257,0.0108718,0.00481564,0.0302783,0.0167672,0.0609828,0.0114787,0.016736,0.0308737,0.0114017,0.0160351,0.00638105,0.00644637,0.000814511,0.0224963,0.0201054,0.000737778,0.0154315,0.00448759,0.000750783,0.013879,0.0187252,0.0247527,0.0132557,0.021416,0.0142194,0.0293044,0.0232475,0.0110821,0.0122027,0.0104516,0.0192944,0.0232542,0.00474893,0.0197862,0.0382743,0.027642,0.0142781,0.0203225,0.00266867,0.0366419,0.0107538,0.0189263,0.0184313,0.0176921,0.0165167,0.0524398,0.0210996,0.0252863,0.0288027,0.027642,0.0164831,0.0341003
0.0236024,0.0271983,0.00659568,0.0072168,0.00405843,0.00128589,0.00171174,0.016288,0.00270609,0.0622404,0.00256397,0.00850309,0.016094,0.0026511,0.00571913,0.00684743,0.00345051,0.000576799,0.00667187,0.0112611,0.0012557,0.00636314,0.00825676,0.00308355,0.0228807,0.0333047,0.0115797,0.00745489,0.013459,0.0267318,0.01611,0.0256371,0.00680773,0.00332195,0.00063338,0.0107352,0.0160707,0.00738776,0.0264947,0.046688,0.0188796,0.00206518,0.014204,0.00750093,0.0460084,0.0154751,0.00667638,0.0127435,0.00755132,0.00741547,0.0404747,0.00457901,0.01522,0.0223492,0.0188796,0.0183339,0.018146
0.0165845,0.018798,0.00862838,0.00570925,0.00581849,0.0012458,0.0056948,0.00590713,0.00153129,0.0647553,0.00155403,0.000591111,0.00684703,0.00159706,0.0011068,0.018135,0.00163275,0.00707877,0.0073246,0.00237877,0.00375917,0.0012273,0.0118634,0.00782902,0.0247955,0.0377459,0.0019167,0.00292273,0.00752101,0.0310621,0.011612,0.0276099,0.00163114,0.00489074,0.00440382,0.00678036,0.0135647,0.00759618,0.0322203,0.0550206,0.0138384,0.0050655,0.0170537,0.0133397,0.0518858,0.0167738,0.00797937,0.0151523,0.00413312,0.00354257,0.0361128,0.00210473,0.00718517,0.0161395,0.0138384,0.0210814,0.00811997
0.0108248,0.0133972,0.0017753,0.000564216,0.00576524,0.00603496,0.0062936,0.00248483,0.00442166,0.0692349,0.00404549,0.0106806,0.00160863,0.00497164,0.0120491,0.0218603,0.0070618,0.00432136,0.00369009,0.00393371,0.00408356,0.00993203,0.0150167,0.0105951,0.0351866,0.0410912,0.000422133,0.00277083,0.00872112,0.0341612,0.0119681,0.0287723,0.00407682,0.012507,0.00667054,0.00995926,0.0109132,0.0112756,0.0379194,0.0627815,0.0132643,0.0125601,0.0207571,0.0176916,0.0613126,0.022242,0.0114581,0.0157475,0.004118,0.00393333,0.0292029,0.00902182,0.00126237,0.0160721,0.0132643,0.0277427,0.00623333
0.0115763,0.0148156,0.00551589,0.00957836,0.0084698,0.00429104,0.00817272,0.00166667,0.00648011,0.0701104,0.00352982,0.014193,0.00209393,0.00747553,0.0130741,0.028318,0.00960185,0.00603722,0.00240825,0.0100112,0.00844342,0.0107218,0.0132545,0.0109068,0.0310894,0.0440966,0.00363333,0.00253188,0.0096313,0.0370248,0.012935,0.0330778,0.00579518,0.0105507,0.00565713,0.0104734,0.0110591,0.0101198,0.0376127,0.0647197,0.0132914,0.0146644,0.0196895,0.0163952,0.0639474,0.0198439,0.00992837,0.01414,0.00460936,0.0065,0.0291907,0.0112511,0.00403097,0.0164813,0.0132914,0.0332794,0.00943333
0.00906071,0.0146172,0.00285504,0.00804631,0.00696398,0.00116068,0.00583185,0.00493333,0.00215154,0.0720253,0.00175409,0.0152183,0.0048,0.00420937,0.0176966,0.0333799,0.00298919,0.00923488,0.0116651,0.0114351,0.0054055,0.0131461,0.0149822,0.011355,0.0346917,0.0479784,0.0028,0.00437392,0.0118394,0.0417728,0.0111372,0.0324342,0.00774506,0.0129602,0.00620856,0.00771014,0.0133719,0.0122724,0.0382465,0.0636707,0.0114395,0.0111082,0.0239588,0.0178366,0.0602903,0.0231285,0.0107975,0.0140325,0.00685705,0.0015,0.0327005,0.0086818,0.000743633,0.0156499,0.0114395,0.0306048,0.00816667
0.00914375,0.0142485,0.00296758,0.00667993,0.0104214,0.00496537,0.0105539,0.0025512,0.00374693,0.0698277,0.00403013,0.016248,0.0023,0.00501654,0.0101718,0.0291596,0.00672988,0.0115181,0.00801744,0.00892386,0.00791579,0.0119083,0.0169624,0.0136614,0.0321906,0.0473872,0.0058,0.00628328,0.00770285,0.0402728,0.0116857,0.0312193,0.00158947,0.0118764,0.00731736,0.0108887,0.011691,0.0121299,0.0396776,0.0656567,0.0152507,0.0118459,0.022456,0.0170525,0.0640575,0.0210524,0.0105319,0.0142069,0.00406664,0.00456667,0.0329106,0.00709049,0.0019651,0.0134492,0.0152507,0.0304963,0.00773333
0.00996658,0.0120284,0.0017448,0.00813156,0.00831973,0.00741746,0.00771665,0.00363333,0.00741981,0.0719547,0.00355897,0.0178221,0.0043,0.00516361,0.011231,0.0340984,0.00558898,0.00957432,0.00652241,0.0112154,0.00821667,0.014687,0.0189893,0.0147834,0.0349699,0.0448496,0.00423333,0.00555266,0.00831962,0.0398124,0.0127042,0.0310507,0.00308655,0.01451,0.0096737,0.0113202,0.0118763,0.0120485,0.0384181,0.0637317,0.0112732,0.014205,0.0255224,0.0207534,0.0630203,0.0264424,0.011498,0.0170389,0.00746122,0.0047,0.0295348,0.0121319,0.0003899,0.0148473,0.0112732,0.0325223,0.00783333
0.00966442,0.012603,0.00317019,0.00663716,0.00938721,0.0104685,0.0107232,0.00283333,0.0111455,0.0697474,0.00815046,0.0137596,0.0032,0.004469,0.010666,0.0292919,0.00700092,0.00952103,0.00809977,0.00581794,0.00621979,0.0113572,0.0202361,0.0184617,0.0341457,0.0455211,0.00193333,0.00255923,0.00910352,0.0388907,0.0124469,0.0318358,0.00332953,0.0168494,0.00857793,0.0112932,0.0115256,0.0132798,0.0429508,0.0681971,0.0133343,0.0168732,0.0223066,0.0177111,0.0667242,0.020868,0.0089137,0.0156427,0.00420377,0.005,0.0288621,0.0129657,0.0022718,0.015831,0.0133343,0.0317812,0.0108333
0.0100954,0.0136915,0.00232698,0.00402027,0.0124713,0.00546613,0.0119366,0.00326667,0.00701718,0.0736681,0.00295713,0.011991,0.00303333,0.000937832,0.0114287,0.029977,0.00216667,0.0102979,0.00513727,0.00810473,0.00500795,0.0117374,0.0203389,0.0165254,0.0342741,0.0415884,0.00273333,0.00424108,0.0092816,0.0372893,0.0119262,0.0359,0.00182376,0.0164543,0.00471996,0.0128119,0.0114028,0.0160574,0.0417583,0.0693467,0.0156459,0.0161344,0.021408,0.0147086,0.06838,0.0196094,0.00790793,0.0130684,0.00456505,0.00383333,0.0277268,0.0138025,0.0023391,0.0138851,0.0156459,0.0270407,0.00896667
0.0140904,0.016715,0.0010783,0.00324505,0.00900234,0.00512313,0.00807421,0.0034,0.00616595,0.0723344,0.00195439,0.0156459,0.00276667,0.00463588,0.0124372,0.0259577,0.00637392,0.00947891,0.00886808,0.00625127,0.00503642,0.0133979,0.0170343,0.0141555,0.0404168,0.0428973,0.00316667,0.00235768,0.00780197,0.037352,0.0113852,0.0315069,0.00242397,0.0156287,0.00647488,0.0112077,0.0114787,0.0137603,0.0444788,0.0686797,0.0134334,0.0175446,0.0233073,0.0165279,0.0680328,0.0217439,0.00878402,0.0157922,0.00429397,0.00453333,0.0267645,0.0136401,0.00108863,0.0164657,0.0134334,0.0258938,0.00906667
0.0126887,0.017902,0.00182708,0.0051376,0.00935766,0.00425917,0.00857114,0.00403333,0.00398812,0.0682199,0.00254806,0.0145064,0.00336667,0.00507528,0.00819871,0.0302657,0.00736,0.00959111,0.00891196,0.00910777,0.00812953,0.0135528,0.0180198,0.0163505,0.0334826,0.0407802,0.00383333,0.0018194,0.00916918,0.0361066,0.0111851,0.0321175,0.00440581,0.0118439,0.00350207,0.0105855,0.0123664,0.0104479,0.0390832,0.0648938,0.0140396,0.0137227,0.0232457,0.0195525,0.063337,0.0220236,0.00938601,0.0157406,0.00388067,0.0036,0.0285606,0.0112592,0.0006393,0.0159882,0.0140396,0.02957,0.0111333
0.00938763,0.0141745,0.00460783,0.00384812,0.00794937,0.00566611,0.00981811,0.00423333,0.00404581,0.0709358,0.00308265,0.0170732,0.0041,0.00395641,0.0114416,0.0286654,0.00567729,0.00984678,0.00629372,0.00777206,0.00927826,0.0133287,0.0210089,0.0181836,0.0331802,0.0426972,0.0042,0.0039911,0.00998965,0.0355588,0.011818,0.0322699,0.00673456,0.0159504,0.00681463,0.00968799,0.010496,0.0137826,0.0410661,0.0678728,0.0144928,0.0187378,0.0227242,0.0185214,0.0681653,0.0219225,0.00964712,0.0147559,0.00486175,0.00673333,0.0257348,0.0145171,0.00104917,0.0144063,0.0144928,0.027868,0.00986667